conds_file,label_left,label_right,stimImage,stimWord,CorrAns,instruct_pages.thisRepN,instruct_pages.thisTrialN,instruct_pages.thisN,instruct_pages.thisIndex,blocks.thisRepN,blocks.thisTrialN,blocks.thisN,blocks.thisIndex,trials.thisRepN,trials.thisTrialN,trials.thisN,trials.thisIndex,instr_done_button.started,instr_done_label.started,instr_done_touch.started,instr_done_touch.x,instr_done_touch.y,instr_done_touch.leftButton,instr_done_touch.midButton,instr_done_touch.rightButton,button_L.started,button_R.started,fixation.started,fixation.stopped,image_stim.started,text_stim.started,key_resp.started,button_left.started,button_right.started,touch_resp.started,key_resp.keys,key_resp.corr,key_resp.rt,touch_resp.x,touch_resp.y,touch_resp.leftButton,touch_resp.midButton,touch_resp.rightButton,touch_resp.time,touch_resp.clicked_name,rt,corr,thanks_text.started,participant,order,session,gender,date,expName,psychopyVersion,frameRate,
pos_neg_train.xlsx,"A = 
Positive","L = 
Negative",stimuli/blank.png,Nasty,l,,,,,0,0,0,0,0,0,0,9,22.214243099995656,22.214243099995656,0.04037630000675563,-0.019444444444444445,-0.4101851851851852,0,0,0,38.8504535999964,38.8504535999964,44.18901239999104,44.683830599999055,44.683830599999055,44.683830599999055,44.683830599999055,44.683830599999055,44.683830599999055,0.5363879999931669,l,1,1.264630899997428,[],[],[],[],[],[],[],1.264630899997428,1,,krish,1,001,male,2023-03-11_19h19.48.981,IAT-1.4,2022.2.5,59.95926367668947,
pos_neg_train.xlsx,"A = 
Positive","L = 
Negative",stimuli/blank.png,Joy,a,,,,,0,0,0,0,0,1,1,8,,,,,,,,,,,46.97869559998799,47.479103099991335,47.479103099991335,47.479103099991335,47.479103099991335,47.479103099991335,47.479103099991335,0.513108299986925,a,1,1.0137692999996943,[],[],[],[],[],[],[],1.0137692999996943,1,,krish,1,001,male,2023-03-11_19h19.48.981,IAT-1.4,2022.2.5,59.95926367668947,
pos_neg_train.xlsx,"A = 
Positive","L = 
Negative",stimuli/blank.png,Hurt,l,,,,,0,0,0,0,0,2,2,3,,,,,,,,,,,49.51259610000125,50.01238679999369,50.01238679999369,50.01238679999369,50.01238679999369,50.01238679999369,50.01238679999369,0.5131542999879457,l,1,0.7743214999936754,[],[],[],[],[],[],[],0.7743214999936754,1,,krish,1,001,male,2023-03-11_19h19.48.981,IAT-1.4,2022.2.5,59.95926367668947,
pos_neg_train.xlsx,"A = 
Positive","L = 
Negative",stimuli/blank.png,Happy,a,,,,,0,0,0,0,0,3,3,2,,,,,,,,,,,51.81176899999264,52.312056299997494,52.312056299997494,52.312056299997494,52.312056299997494,52.312056299997494,52.312056299997494,0.5127236999978777,a,1,0.6476168000081088,[],[],[],[],[],[],[],0.6476168000081088,1,,krish,1,001,male,2023-03-11_19h19.48.981,IAT-1.4,2022.2.5,59.95926367668947,
pos_neg_train.xlsx,"A = 
Positive","L = 
Negative",stimuli/blank.png,Love,a,,,,,0,0,0,0,0,4,4,6,,,,,,,,,,,53.97835799999302,54.47874399999273,54.47874399999273,54.47874399999273,54.47874399999273,54.47874399999273,54.47874399999273,0.513035600000876,a,1,0.889066499992623,[],[],[],[],[],[],[],0.889066499992623,1,,krish,1,001,male,2023-03-11_19h19.48.981,IAT-1.4,2022.2.5,59.95926367668947,
pos_neg_train.xlsx,"A = 
Positive","L = 
Negative",stimuli/blank.png,Pleasure,a,,,,,0,0,0,0,0,5,5,4,,,,,,,,,,,56.39500439999392,56.89509839999664,56.89509839999664,56.89509839999664,56.89509839999664,56.89509839999664,56.89509839999664,0.5120558000053279,a,1,0.8684014000027673,[],[],[],[],[],[],[],0.8684014000027673,1,,krish,1,001,male,2023-03-11_19h19.48.981,IAT-1.4,2022.2.5,59.95926367668947,
pos_neg_train.xlsx,"A = 
Positive","L = 
Negative",stimuli/blank.png,Agony,l,,,,,0,0,0,0,0,6,6,5,,,,,,,,,,,58.79453139999532,59.29506219999166,59.29506219999166,59.29506219999166,59.29506219999166,59.29506219999166,59.29506219999166,0.5138563999935286,l,1,0.9263831000134815,[],[],[],[],[],[],[],0.9263831000134815,1,,krish,1,001,male,2023-03-11_19h19.48.981,IAT-1.4,2022.2.5,59.95926367668947,
pos_neg_train.xlsx,"A = 
Positive","L = 
Negative",stimuli/blank.png,Good,a,,,,,0,0,0,0,0,7,7,0,,,,,,,,,,,61.24454469999182,61.744898499993724,61.744898499993724,61.744898499993724,61.744898499993724,61.744898499993724,61.744898499993724,0.5135126000095624,a,1,0.555245499999728,[],[],[],[],[],[],[],0.555245499999728,1,,krish,1,001,male,2023-03-11_19h19.48.981,IAT-1.4,2022.2.5,59.95926367668947,
pos_neg_train.xlsx,"A = 
Positive","L = 
Negative",stimuli/blank.png,Evil,l,,,,,0,0,0,0,0,8,8,7,,,,,,,,,,,63.32772180000029,63.82794049999211,63.82794049999211,63.82794049999211,63.82794049999211,63.82794049999211,63.82794049999211,0.5140215999999782,l,1,0.9227821000094991,[],[],[],[],[],[],[],0.9227821000094991,1,,krish,1,001,male,2023-03-11_19h19.48.981,IAT-1.4,2022.2.5,59.95926367668947,
pos_neg_train.xlsx,"A = 
Positive","L = 
Negative",stimuli/blank.png,Bad,l,,,,,0,0,0,0,0,9,9,1,,,,,,,,,,,65.77749929999118,66.277814999994,66.277814999994,66.277814999994,66.277814999994,66.277814999994,66.277814999994,0.5135083999921335,l,1,1.1305473999964306,[],[],[],[],[],[],[],1.1305473999964306,1,,krish,1,001,male,2023-03-11_19h19.48.981,IAT-1.4,2022.2.5,59.95926367668947,
cong_train.xlsx,"A = 
Healthy","L = 
Unhealthy",stimuli/blank.png,Salad,a,,,,,0,1,1,1,0,0,0,1,,,,,,,,,68.43646369999624,68.43646369999624,76.16848129998834,76.64414759998908,76.64414759998908,76.64414759998908,76.64414759998908,76.64414759998908,76.64414759998908,0.5158857999922475,a,1,1.096971900013159,[],[],[],[],[],[],[],1.096971900013159,1,,krish,1,001,male,2023-03-11_19h19.48.981,IAT-1.4,2022.2.5,59.95926367668947,
cong_train.xlsx,"A = 
Healthy","L = 
Unhealthy",stimuli/blank.png,Yogurt,a,,,,,0,1,1,1,0,1,1,7,,,,,,,,,,,78.76019689999521,79.26059869999881,79.26059869999881,79.26059869999881,79.26059869999881,79.26059869999881,79.26059869999881,0.5117962999938754,a,1,1.648500300012529,[],[],[],[],[],[],[],1.648500300012529,1,,krish,1,001,male,2023-03-11_19h19.48.981,IAT-1.4,2022.2.5,59.95926367668947,
cong_train.xlsx,"A = 
Healthy","L = 
Unhealthy",stimuli/blank.png,Soft Drinks,l,,,,,0,1,1,1,0,2,2,8,,,,,,,,,,,81.9284939999925,82.42680819999077,82.42680819999077,82.42680819999077,82.42680819999077,82.42680819999077,82.42680819999077,0.5127324999921257,l,1,0.8563796000089496,[],[],[],[],[],[],[],0.8563796000089496,1,,krish,1,001,male,2023-03-11_19h19.48.981,IAT-1.4,2022.2.5,59.95926367668947,
cong_train.xlsx,"A = 
Healthy","L = 
Unhealthy",stimuli/blank.png,Fruit Salad,a,,,,,0,1,1,1,0,3,3,5,,,,,,,,,,,84.30956389999483,84.81027190000168,84.81027190000168,84.81027190000168,84.81027190000168,84.81027190000168,84.81027190000168,0.5135258000082104,a,1,1.1438247000041883,[],[],[],[],[],[],[],1.1438247000041883,1,,krish,1,001,male,2023-03-11_19h19.48.981,IAT-1.4,2022.2.5,59.95926367668947,
cong_train.xlsx,"A = 
Healthy","L = 
Unhealthy",stimuli/blank.png,Fruit Juice,a,,,,,0,1,1,1,0,4,4,9,,,,,,,,,,,86.97614210000029,87.47642500000075,87.47642500000075,87.47642500000075,87.47642500000075,87.47642500000075,87.47642500000075,0.5122831000044243,a,1,0.9494971999956761,[],[],[],[],[],[],[],0.9494971999956761,1,,krish,1,001,male,2023-03-11_19h19.48.981,IAT-1.4,2022.2.5,59.95926367668947,
cong_train.xlsx,"A = 
Healthy","L = 
Unhealthy",stimuli/blank.png,Burger,l,,,,,0,1,1,1,0,5,5,0,,,,,,,,,,,89.44310959998984,89.94288259999303,89.94288259999303,89.94288259999303,89.94288259999303,89.94288259999303,89.94288259999303,0.5126885999925435,l,1,0.8259897999960231,[],[],[],[],[],[],[],0.8259897999960231,1,,krish,1,001,male,2023-03-11_19h19.48.981,IAT-1.4,2022.2.5,59.95926367668947,
cong_train.xlsx,"A = 
Healthy","L = 
Unhealthy",stimuli/blank.png,Biriyani,l,,,,,0,1,1,1,0,6,6,6,,,,,,,,,,,91.79254850000143,92.29311549999693,92.29311549999693,92.29311549999693,92.29311549999693,92.29311549999693,92.29311549999693,0.5134336999908555,l,1,1.2622171000111848,[],[],[],[],[],[],[],1.2622171000111848,1,,krish,1,001,male,2023-03-11_19h19.48.981,IAT-1.4,2022.2.5,59.95926367668947,
cong_train.xlsx,"A = 
Healthy","L = 
Unhealthy",stimuli/blank.png,Fries,l,,,,,0,1,1,1,0,7,7,2,,,,,,,,,,,94.57571530000132,95.07605299999705,95.07605299999705,95.07605299999705,95.07605299999705,95.07605299999705,95.07605299999705,0.5135933999990812,l,1,0.9973817999998573,[],[],[],[],[],[],[],0.9973817999998573,1,,krish,1,001,male,2023-03-11_19h19.48.981,IAT-1.4,2022.2.5,59.95926367668947,
cong_train.xlsx,"A = 
Healthy","L = 
Unhealthy",stimuli/blank.png,Vegetables,a,,,,,0,1,1,1,0,8,8,3,,,,,,,,,,,97.0929335999972,97.59265120000055,97.59265120000055,97.59265120000055,97.59265120000055,97.59265120000055,97.59265120000055,0.5142204000003403,a,1,1.154800600008457,[],[],[],[],[],[],[],1.154800600008457,1,,krish,1,001,male,2023-03-11_19h19.48.981,IAT-1.4,2022.2.5,59.95926367668947,
cong_train.xlsx,"A = 
Healthy","L = 
Unhealthy",stimuli/blank.png,Pizza,l,,,,,0,1,1,1,0,9,9,4,,,,,,,,,,,99.77528370000073,100.27578809999977,100.27578809999977,100.27578809999977,100.27578809999977,100.27578809999977,100.27578809999977,0.5140628999943146,l,1,0.8977664000121877,[],[],[],[],[],[],[],0.8977664000121877,1,,krish,1,001,male,2023-03-11_19h19.48.981,IAT-1.4,2022.2.5,59.95926367668947,
cong_test.xlsx,"A = 
Healthy or 
Positive","L = 
Unhealthy or 
Negative",stimuli/blank.png,Salad,a,,,,,0,2,2,2,0,0,0,1,,,,,,,,,102.20195229999081,102.20195229999081,104.6035383999988,105.07559599999513,105.07559599999513,105.07559599999513,105.07559599999513,105.07559599999513,105.07559599999513,0.5151232000062009,a,1,1.0956280000100378,[],[],[],[],[],[],[],1.0956280000100378,1,,krish,1,001,male,2023-03-11_19h19.48.981,IAT-1.4,2022.2.5,59.95926367668947,
cong_test.xlsx,"A = 
Healthy or 
Positive","L = 
Unhealthy or 
Negative",stimuli/blank.png,Vegetables,a,,,,,0,2,2,2,0,1,1,3,,,,,,,,,,,107.1915588999982,107.69176609998976,107.69176609998976,107.69176609998976,107.69176609998976,107.69176609998976,107.69176609998976,0.5118423999956576,a,1,1.2716368999972474,[],[],[],[],[],[],[],1.2716368999972474,1,,krish,1,001,male,2023-03-11_19h19.48.981,IAT-1.4,2022.2.5,59.95926367668947,
cong_test.xlsx,"A = 
Healthy or 
Positive","L = 
Unhealthy or 
Negative",stimuli/blank.png,Good,a,,,,,0,2,2,2,0,2,2,10,,,,,,,,,,,109.9915481999924,110.49150910000026,110.49150910000026,110.49150910000026,110.49150910000026,110.49150910000026,110.49150910000026,0.5142147000005934,a,1,0.5935001999896485,[],[],[],[],[],[],[],0.5935001999896485,1,,krish,1,001,male,2023-03-11_19h19.48.981,IAT-1.4,2022.2.5,59.95926367668947,
cong_test.xlsx,"A = 
Healthy or 
Positive","L = 
Unhealthy or 
Negative",stimuli/blank.png,Fruit Salad,a,,,,,0,2,2,2,0,3,3,5,,,,,,,,,,,112.10808659999748,112.60844909999287,112.60844909999287,112.60844909999287,112.60844909999287,112.60844909999287,112.60844909999287,0.5156964999914635,a,1,0.8504133000096772,[],[],[],[],[],[],[],0.8504133000096772,1,,krish,1,001,male,2023-03-11_19h19.48.981,IAT-1.4,2022.2.5,59.95926367668947,
cong_test.xlsx,"A = 
Healthy or 
Positive","L = 
Unhealthy or 
Negative",stimuli/blank.png,Bad,l,,,,,0,2,2,2,0,4,4,11,,,,,,,,,,,114.47441229999822,114.97465809999267,114.97465809999267,114.97465809999267,114.97465809999267,114.97465809999267,114.97465809999267,0.5125875000085216,l,1,0.9309704000042984,[],[],[],[],[],[],[],0.9309704000042984,1,,krish,1,001,male,2023-03-11_19h19.48.981,IAT-1.4,2022.2.5,59.95926367668947,
cong_test.xlsx,"A = 
Healthy or 
Positive","L = 
Unhealthy or 
Negative",stimuli/blank.png,Joy,a,,,,,0,2,2,2,0,5,5,18,,,,,,,,,,,116.92434709999361,117.42461069999263,117.42461069999263,117.42461069999263,117.42461069999263,117.42461069999263,117.42461069999263,0.5136963999975706,a,1,0.8485245999909239,[],[],[],[],[],[],[],0.8485245999909239,1,,krish,1,001,male,2023-03-11_19h19.48.981,IAT-1.4,2022.2.5,59.95926367668947,
cong_test.xlsx,"A = 
Healthy or 
Positive","L = 
Unhealthy or 
Negative",stimuli/blank.png,Agony,l,,,,,0,2,2,2,0,6,6,15,,,,,,,,,,,119.29080109999632,119.79092639998998,119.79092639998998,119.79092639998998,119.79092639998998,119.79092639998998,119.79092639998998,0.5131345999980113,l,1,0.7557847999996739,[],[],[],[],[],[],[],0.7557847999996739,1,,krish,1,001,male,2023-03-11_19h19.48.981,IAT-1.4,2022.2.5,59.95926367668947,
cong_test.xlsx,"A = 
Healthy or 
Positive","L = 
Unhealthy or 
Negative",stimuli/blank.png,Soft Drinks,l,,,,,0,2,2,2,0,7,7,8,,,,,,,,,,,121.57427989999996,122.07446089999576,122.07446089999576,122.07446089999576,122.07446089999576,122.07446089999576,122.07446089999576,0.5133105999993859,l,1,0.8819832000008319,[],[],[],[],[],[],[],0.8819832000008319,1,,krish,1,001,male,2023-03-11_19h19.48.981,IAT-1.4,2022.2.5,59.95926367668947,
cong_test.xlsx,"A = 
Healthy or 
Positive","L = 
Unhealthy or 
Negative",stimuli/blank.png,Pizza,l,,,,,0,2,2,2,0,8,8,4,,,,,,,,,,,123.97389589999511,124.47404289999395,124.47404289999395,124.47404289999395,124.47404289999395,124.47404289999395,124.47404289999395,0.5138607999979286,l,1,1.092821999991429,[],[],[],[],[],[],[],1.092821999991429,1,,krish,1,001,male,2023-03-11_19h19.48.981,IAT-1.4,2022.2.5,59.95926367668947,
cong_test.xlsx,"A = 
Healthy or 
Positive","L = 
Unhealthy or 
Negative",stimuli/blank.png,Biriyani,l,,,,,0,2,2,2,0,9,9,6,,,,,,,,,,,126.59026679999079,127.09045350000088,127.09045350000088,127.09045350000088,127.09045350000088,127.09045350000088,127.09045350000088,0.5137123000022257,l,1,0.721650999999838,[],[],[],[],[],[],[],0.721650999999838,1,,krish,1,001,male,2023-03-11_19h19.48.981,IAT-1.4,2022.2.5,59.95926367668947,
cong_test.xlsx,"A = 
Healthy or 
Positive","L = 
Unhealthy or 
Negative",stimuli/blank.png,Love,a,,,,,0,2,2,2,0,10,10,16,,,,,,,,,,,128.84010259999195,129.34047609999834,129.34047609999834,129.34047609999834,129.34047609999834,129.34047609999834,129.34047609999834,0.5136767999938456,a,1,0.9127011999953538,[],[],[],[],[],[],[],0.9127011999953538,1,,krish,1,001,male,2023-03-11_19h19.48.981,IAT-1.4,2022.2.5,59.95926367668947,
cong_test.xlsx,"A = 
Healthy or 
Positive","L = 
Unhealthy or 
Negative",stimuli/blank.png,Yogurt,a,,,,,0,2,2,2,0,11,11,7,,,,,,,,,,,131.2734483999957,131.77383289999852,131.77383289999852,131.77383289999852,131.77383289999852,131.77383289999852,131.77383289999852,0.51376459999301,a,1,0.7400862000067718,[],[],[],[],[],[],[],0.7400862000067718,1,,krish,1,001,male,2023-03-11_19h19.48.981,IAT-1.4,2022.2.5,59.95926367668947,
cong_test.xlsx,"A = 
Healthy or 
Positive","L = 
Unhealthy or 
Negative",stimuli/blank.png,Pleasure,a,,,,,0,2,2,2,0,12,12,14,,,,,,,,,,,133.53986199999053,134.04003569998895,134.04003569998895,134.04003569998895,134.04003569998895,134.04003569998895,134.04003569998895,0.5135920000029728,a,1,0.8948244999919552,[],[],[],[],[],[],[],0.8948244999919552,1,,krish,1,001,male,2023-03-11_19h19.48.981,IAT-1.4,2022.2.5,59.95926367668947,
cong_test.xlsx,"A = 
Healthy or 
Positive","L = 
Unhealthy or 
Negative",stimuli/blank.png,Burger,l,,,,,0,2,2,2,0,13,13,0,,,,,,,,,,,135.95693529999699,136.456511700002,136.456511700002,136.456511700002,136.456511700002,136.456511700002,136.456511700002,0.5127420999924652,l,1,0.8369301000057021,[],[],[],[],[],[],[],0.8369301000057021,1,,krish,1,001,male,2023-03-11_19h19.48.981,IAT-1.4,2022.2.5,59.95926367668947,
cong_test.xlsx,"A = 
Healthy or 
Positive","L = 
Unhealthy or 
Negative",stimuli/blank.png,Nasty,l,,,,,0,2,2,2,0,14,14,19,,,,,,,,,,,138.32303719999618,138.82365619999473,138.82365619999473,138.82365619999473,138.82365619999473,138.82365619999473,138.82365619999473,0.5144140999909723,l,1,0.8784127999970224,[],[],[],[],[],[],[],0.8784127999970224,1,,krish,1,001,male,2023-03-11_19h19.48.981,IAT-1.4,2022.2.5,59.95926367668947,
cong_test.xlsx,"A = 
Healthy or 
Positive","L = 
Unhealthy or 
Negative",stimuli/blank.png,Hurt,l,,,,,0,2,2,2,0,15,15,13,,,,,,,,,,,140.722706200002,141.22305010000127,141.22305010000127,141.22305010000127,141.22305010000127,141.22305010000127,141.22305010000127,0.5130952999898,l,1,0.8680919000034919,[],[],[],[],[],[],[],0.8680919000034919,1,,krish,1,001,male,2023-03-11_19h19.48.981,IAT-1.4,2022.2.5,59.95926367668947,
cong_test.xlsx,"A = 
Healthy or 
Positive","L = 
Unhealthy or 
Negative",stimuli/blank.png,Fruit Juice,a,,,,,0,2,2,2,0,16,16,9,,,,,,,,,,,143.1226553999877,143.6230926999997,143.6230926999997,143.6230926999997,143.6230926999997,143.6230926999997,143.6230926999997,0.51370309999038,a,1,1.7284475999913411,[],[],[],[],[],[],[],1.7284475999913411,1,,krish,1,001,male,2023-03-11_19h19.48.981,IAT-1.4,2022.2.5,59.95926367668947,
cong_test.xlsx,"A = 
Healthy or 
Positive","L = 
Unhealthy or 
Negative",stimuli/blank.png,Fries,l,,,,,0,2,2,2,0,17,17,2,,,,,,,,,,,146.37257839999802,146.87263909999456,146.87263909999456,146.87263909999456,146.87263909999456,146.87263909999456,146.87263909999456,0.5133129000023473,l,1,0.6953958000085549,[],[],[],[],[],[],[],0.6953958000085549,1,,krish,1,001,male,2023-03-11_19h19.48.981,IAT-1.4,2022.2.5,59.95926367668947,
cong_test.xlsx,"A = 
Healthy or 
Positive","L = 
Unhealthy or 
Negative",stimuli/blank.png,Evil,l,,,,,0,2,2,2,0,18,18,17,,,,,,,,,,,148.58894279999367,149.08916459999455,149.08916459999455,149.08916459999455,149.08916459999455,149.08916459999455,149.08916459999455,0.5132950999977766,l,1,0.665623399996548,[],[],[],[],[],[],[],0.665623399996548,1,,krish,1,001,male,2023-03-11_19h19.48.981,IAT-1.4,2022.2.5,59.95926367668947,
cong_test.xlsx,"A = 
Healthy or 
Positive","L = 
Unhealthy or 
Negative",stimuli/blank.png,Happy,a,,,,,0,2,2,2,0,19,19,12,,,,,,,,,,,150.77222809998784,151.27267159998883,151.27267159998883,151.27267159998883,151.27267159998883,151.27267159998883,151.27267159998883,0.5132736999948975,a,1,0.7398000999965006,[],[],[],[],[],[],[],0.7398000999965006,1,,krish,1,001,male,2023-03-11_19h19.48.981,IAT-1.4,2022.2.5,59.95926367668947,
incong_train.xlsx,"A = 
Unhealthy","L = 
Healthy",stimuli/blank.png,Fruit Juice,l,,,,,0,3,3,3,0,0,0,9,,,,,,,,,153.04477199999383,153.04477199999383,159.66326879999542,160.13865480000095,160.13865480000095,160.13865480000095,160.13865480000095,160.13865480000095,160.13865480000095,0.5150913999968907,l,1,0.652967300004093,[],[],[],[],[],[],[],0.652967300004093,1,,krish,1,001,male,2023-03-11_19h19.48.981,IAT-1.4,2022.2.5,59.95926367668947,
incong_train.xlsx,"A = 
Unhealthy","L = 
Healthy",stimuli/blank.png,Fries,a,,,,,0,3,3,3,0,1,1,2,,,,,,,,,,,161.8214789999911,162.32208179999725,162.32208179999725,162.32208179999725,162.32208179999725,162.32208179999725,162.32208179999725,0.5136264999891864,a,1,1.144641999999294,[],[],[],[],[],[],[],1.144641999999294,1,,krish,1,001,male,2023-03-11_19h19.48.981,IAT-1.4,2022.2.5,59.95926367668947,
incong_train.xlsx,"A = 
Unhealthy","L = 
Healthy",stimuli/blank.png,Fruit Salad,l,,,,,0,3,3,3,0,2,2,5,,,,,,,,,,,164.48790909998934,164.98810979998962,164.98810979998962,164.98810979998962,164.98810979998962,164.98810979998962,164.98810979998962,0.5128559999866411,l,1,1.0823884999990696,[],[],[],[],[],[],[],1.0823884999990696,1,,krish,1,001,male,2023-03-11_19h19.48.981,IAT-1.4,2022.2.5,59.95926367668947,
incong_train.xlsx,"A = 
Unhealthy","L = 
Healthy",stimuli/blank.png,Salad,l,,,,,0,3,3,3,0,3,3,1,,,,,,,,,,,167.08784589999414,167.58792469999753,167.58792469999753,167.58792469999753,167.58792469999753,167.58792469999753,167.58792469999753,0.5132761999993818,l,1,0.7722941000101855,[],[],[],[],[],[],[],0.7722941000101855,1,,krish,1,001,male,2023-03-11_19h19.48.981,IAT-1.4,2022.2.5,59.95926367668947,
incong_train.xlsx,"A = 
Unhealthy","L = 
Healthy",stimuli/blank.png,Biriyani,a,,,,,0,3,3,3,0,4,4,6,,,,,,,,,,,169.3876489999966,169.88786550000077,169.88786550000077,169.88786550000077,169.88786550000077,169.88786550000077,169.88786550000077,0.5127686000050744,a,1,0.7414896999980556,[],[],[],[],[],[],[],0.7414896999980556,1,,krish,1,001,male,2023-03-11_19h19.48.981,IAT-1.4,2022.2.5,59.95926367668947,
incong_train.xlsx,"A = 
Unhealthy","L = 
Healthy",stimuli/blank.png,Soft Drinks,a,,,,,0,3,3,3,0,5,5,8,,,,,,,,,,,171.65414429998782,172.15440279999166,172.15440279999166,172.15440279999166,172.15440279999166,172.15440279999166,172.15440279999166,0.513830700001563,a,1,1.8522345000092173,[],[],[],[],[],[],[],1.8522345000092173,1,,krish,1,001,male,2023-03-11_19h19.48.981,IAT-1.4,2022.2.5,59.95926367668947,
incong_train.xlsx,"A = 
Unhealthy","L = 
Healthy",stimuli/blank.png,Pizza,a,,,,,0,3,3,3,0,6,6,4,,,,,,,,,,,175.0371529999975,175.5375279,175.5375279,175.5375279,175.5375279,175.5375279,175.5375279,0.5141975000005914,a,1,0.6930164000077639,[],[],[],[],[],[],[],0.6930164000077639,1,,krish,1,001,male,2023-03-11_19h19.48.981,IAT-1.4,2022.2.5,59.95926367668947,
incong_train.xlsx,"A = 
Unhealthy","L = 
Healthy",stimuli/blank.png,Vegetables,l,,,,,0,3,3,3,0,7,7,3,,,,,,,,,,,177.2539162999892,177.75419300000067,177.75419300000067,177.75419300000067,177.75419300000067,177.75419300000067,177.75419300000067,0.5148152000037953,l,1,0.8801089000044158,[],[],[],[],[],[],[],0.8801089000044158,1,,krish,1,001,male,2023-03-11_19h19.48.981,IAT-1.4,2022.2.5,59.95926367668947,
incong_train.xlsx,"A = 
Unhealthy","L = 
Healthy",stimuli/blank.png,Burger,a,,,,,0,3,3,3,0,8,8,0,,,,,,,,,,,179.65387299998838,180.15429419999418,180.15429419999418,180.15429419999418,180.15429419999418,180.15429419999418,180.15429419999418,0.5127759000024525,a,1,0.6692506000108551,[],[],[],[],[],[],[],0.6692506000108551,1,,krish,1,001,male,2023-03-11_19h19.48.981,IAT-1.4,2022.2.5,59.95926367668947,
incong_train.xlsx,"A = 
Unhealthy","L = 
Healthy",stimuli/blank.png,Yogurt,l,,,,,0,3,3,3,0,9,9,7,,,,,,,,,,,181.85353779999423,182.3538516999979,182.3538516999979,182.3538516999979,182.3538516999979,182.3538516999979,182.3538516999979,0.5144126000086544,l,1,1.000266000002739,[],[],[],[],[],[],[],1.000266000002739,1,,krish,1,001,male,2023-03-11_19h19.48.981,IAT-1.4,2022.2.5,59.95926367668947,
incong_test.xlsx,"A = 
Unhealthy or 
Positive","L = 
Healthy or 
Negative",stimuli/blank.png,Bad,l,,,,,0,4,4,4,0,0,0,11,,,,,,,,,184.37898299998778,184.37898299998778,188.94917399999395,189.42025450000074,189.42025450000074,189.42025450000074,189.42025450000074,189.42025450000074,189.42025450000074,0.5147980999900028,l,1,0.7191066999948816,[],[],[],[],[],[],[],0.7191066999948816,1,,krish,1,001,male,2023-03-11_19h19.48.981,IAT-1.4,2022.2.5,59.95926367668947,
incong_test.xlsx,"A = 
Unhealthy or 
Positive","L = 
Healthy or 
Negative",stimuli/blank.png,Fruit Salad,l,,,,,0,4,4,4,0,1,1,5,,,,,,,,,,,191.1695991000015,191.66982049999933,191.66982049999933,191.66982049999933,191.66982049999933,191.66982049999933,191.66982049999933,0.512315200001467,l,1,0.9820537000050535,[],[],[],[],[],[],[],0.9820537000050535,1,,krish,1,001,male,2023-03-11_19h19.48.981,IAT-1.4,2022.2.5,59.95926367668947,
incong_test.xlsx,"A = 
Unhealthy or 
Positive","L = 
Healthy or 
Negative",stimuli/blank.png,Agony,l,,,,,0,4,4,4,0,2,2,15,,,,,,,,,,,193.66946279999684,194.16972249999526,194.16972249999526,194.16972249999526,194.16972249999526,194.16972249999526,194.16972249999526,0.5128613999986555,a,0,0.9903272000083234,[],[],[],[],[],[],[],0.9903272000083234,0,,krish,1,001,male,2023-03-11_19h19.48.981,IAT-1.4,2022.2.5,59.95926367668947,
incong_test.xlsx,"A = 
Unhealthy or 
Positive","L = 
Healthy or 
Negative",stimuli/blank.png,Pizza,a,,,,,0,4,4,4,0,3,3,4,,,,,,,,,,,196.18589959999372,196.68604459999187,196.68604459999187,196.68604459999187,196.68604459999187,196.68604459999187,196.68604459999187,0.5130780999897979,l,0,2.0156813000066904,[],[],[],[],[],[],[],2.0156813000066904,0,,krish,1,001,male,2023-03-11_19h19.48.981,IAT-1.4,2022.2.5,59.95926367668947,
incong_test.xlsx,"A = 
Unhealthy or 
Positive","L = 
Healthy or 
Negative",stimuli/blank.png,Evil,l,,,,,0,4,4,4,0,4,4,17,,,,,,,,,,,199.71926259998872,200.2195350999973,200.2195350999973,200.2195350999973,200.2195350999973,200.2195350999973,200.2195350999973,0.5129668000008678,l,1,2.9115860000019893,[],[],[],[],[],[],[],2.9115860000019893,1,,krish,1,001,male,2023-03-11_19h19.48.981,IAT-1.4,2022.2.5,59.95926367668947,
incong_test.xlsx,"A = 
Unhealthy or 
Positive","L = 
Healthy or 
Negative",stimuli/blank.png,Fries,a,,,,,0,4,4,4,0,5,5,2,,,,,,,,,,,204.1521345999936,204.65254789999744,204.65254789999744,204.65254789999744,204.65254789999744,204.65254789999744,204.65254789999744,0.5138697000074899,a,1,2.3911090000037802,[],[],[],[],[],[],[],2.3911090000037802,1,,krish,1,001,male,2023-03-11_19h19.48.981,IAT-1.4,2022.2.5,59.95926367668947,
incong_test.xlsx,"A = 
Unhealthy or 
Positive","L = 
Healthy or 
Negative",stimuli/blank.png,Yogurt,l,,,,,0,4,4,4,0,6,6,7,,,,,,,,,,,208.06872229999863,208.5687234999932,208.5687234999932,208.5687234999932,208.5687234999932,208.5687234999932,208.5687234999932,0.5132956000015838,l,1,1.145101500005694,[],[],[],[],[],[],[],1.145101500005694,1,,krish,1,001,male,2023-03-11_19h19.48.981,IAT-1.4,2022.2.5,59.95926367668947,
incong_test.xlsx,"A = 
Unhealthy or 
Positive","L = 
Healthy or 
Negative",stimuli/blank.png,Biriyani,a,,,,,0,4,4,4,0,7,7,6,,,,,,,,,,,210.7352619000012,211.23513809998985,211.23513809998985,211.23513809998985,211.23513809998985,211.23513809998985,211.23513809998985,0.5135073999990709,a,1,1.0653970999992453,[],[],[],[],[],[],[],1.0653970999992453,1,,krish,1,001,male,2023-03-11_19h19.48.981,IAT-1.4,2022.2.5,59.95926367668947,
incong_test.xlsx,"A = 
Unhealthy or 
Positive","L = 
Healthy or 
Negative",stimuli/blank.png,Nasty,l,,,,,0,4,4,4,0,8,8,19,,,,,,,,,,,213.3181626000005,213.8183791999909,213.8183791999909,213.8183791999909,213.8183791999909,213.8183791999909,213.8183791999909,0.5119857000099728,l,1,1.3476769999979297,[],[],[],[],[],[],[],1.3476769999979297,1,,krish,1,001,male,2023-03-11_19h19.48.981,IAT-1.4,2022.2.5,59.95926367668947,
incong_test.xlsx,"A = 
Unhealthy or 
Positive","L = 
Healthy or 
Negative",stimuli/blank.png,Joy,a,,,,,0,4,4,4,0,9,9,18,,,,,,,,,,,216.18471699999645,216.68479449998995,216.68479449998995,216.68479449998995,216.68479449998995,216.68479449998995,216.68479449998995,0.5123900000035064,a,1,1.4155788000061875,[],[],[],[],[],[],[],1.4155788000061875,1,,krish,1,001,male,2023-03-11_19h19.48.981,IAT-1.4,2022.2.5,59.95926367668947,
incong_test.xlsx,"A = 
Unhealthy or 
Positive","L = 
Healthy or 
Negative",stimuli/blank.png,Fruit Juice,l,,,,,0,4,4,4,0,10,10,9,,,,,,,,,,,219.11782239998865,219.6182029999909,219.6182029999909,219.6182029999909,219.6182029999909,219.6182029999909,219.6182029999909,0.5134078000119189,l,1,1.2366518000053475,[],[],[],[],[],[],[],1.2366518000053475,1,,krish,1,001,male,2023-03-11_19h19.48.981,IAT-1.4,2022.2.5,59.95926367668947,
incong_test.xlsx,"A = 
Unhealthy or 
Positive","L = 
Healthy or 
Negative",stimuli/blank.png,Pleasure,a,,,,,0,4,4,4,0,11,11,14,,,,,,,,,,,221.88416529999813,222.3844536999968,222.3844536999968,222.3844536999968,222.3844536999968,222.3844536999968,222.3844536999968,0.51419519999763,a,1,1.6902441999991424,[],[],[],[],[],[],[],1.6902441999991424,1,,krish,1,001,male,2023-03-11_19h19.48.981,IAT-1.4,2022.2.5,59.95926367668947,
incong_test.xlsx,"A = 
Unhealthy or 
Positive","L = 
Healthy or 
Negative",stimuli/blank.png,Soft Drinks,a,,,,,0,4,4,4,0,12,12,8,,,,,,,,,,,225.10085859999526,225.6010372999881,225.6010372999881,225.6010372999881,225.6010372999881,225.6010372999881,225.6010372999881,0.5120909999968717,a,1,2.514213700007531,[],[],[],[],[],[],[],2.514213700007531,1,,krish,1,001,male,2023-03-11_19h19.48.981,IAT-1.4,2022.2.5,59.95926367668947,
incong_test.xlsx,"A = 
Unhealthy or 
Positive","L = 
Healthy or 
Negative",stimuli/blank.png,Love,a,,,,,0,4,4,4,0,13,13,16,,,,,,,,,,,229.13383039999462,229.63398319999396,229.63398319999396,229.63398319999396,229.63398319999396,229.63398319999396,229.63398319999396,0.5124221000005491,l,0,0.7691735000116751,[],[],[],[],[],[],[],0.7691735000116751,0,,krish,1,001,male,2023-03-11_19h19.48.981,IAT-1.4,2022.2.5,59.95926367668947,
incong_test.xlsx,"A = 
Unhealthy or 
Positive","L = 
Healthy or 
Negative",stimuli/blank.png,Salad,l,,,,,0,4,4,4,0,14,14,1,,,,,,,,,,,231.4335460000002,231.9336876999878,231.9336876999878,231.9336876999878,231.9336876999878,231.9336876999878,231.9336876999878,0.5143228999950225,l,1,3.0570097000017995,[],[],[],[],[],[],[],3.0570097000017995,1,,krish,1,001,male,2023-03-11_19h19.48.981,IAT-1.4,2022.2.5,59.95926367668947,
incong_test.xlsx,"A = 
Unhealthy or 
Positive","L = 
Healthy or 
Negative",stimuli/blank.png,Burger,a,,,,,0,4,4,4,0,15,15,0,,,,,,,,,,,236.0166870999965,236.51705739999306,236.51705739999306,236.51705739999306,236.51705739999306,236.51705739999306,236.51705739999306,0.5134874000068521,a,1,1.574978300006478,[],[],[],[],[],[],[],1.574978300006478,1,,krish,1,001,male,2023-03-11_19h19.48.981,IAT-1.4,2022.2.5,59.95926367668947,
incong_test.xlsx,"A = 
Unhealthy or 
Positive","L = 
Healthy or 
Negative",stimuli/blank.png,Happy,a,,,,,0,4,4,4,0,16,16,12,,,,,,,,,,,239.1163755000016,239.61678899999242,239.61678899999242,239.61678899999242,239.61678899999242,239.61678899999242,239.61678899999242,0.5126438000006601,a,1,2.419604900002014,[],[],[],[],[],[],[],2.419604900002014,1,,krish,1,001,male,2023-03-11_19h19.48.981,IAT-1.4,2022.2.5,59.95926367668947,
incong_test.xlsx,"A = 
Unhealthy or 
Positive","L = 
Healthy or 
Negative",stimuli/blank.png,Hurt,l,,,,,0,4,4,4,0,17,17,13,,,,,,,,,,,243.06627569999546,243.5668900999881,243.5668900999881,243.5668900999881,243.5668900999881,243.5668900999881,243.5668900999881,0.5141989999974612,l,1,1.0963290000072448,[],[],[],[],[],[],[],1.0963290000072448,1,,krish,1,001,male,2023-03-11_19h19.48.981,IAT-1.4,2022.2.5,59.95926367668947,
incong_test.xlsx,"A = 
Unhealthy or 
Positive","L = 
Healthy or 
Negative",stimuli/blank.png,Good,a,,,,,0,4,4,4,0,18,18,10,,,,,,,,,,,245.68307210000057,246.18287609999243,246.18287609999243,246.18287609999243,246.18287609999243,246.18287609999243,246.18287609999243,0.5130383999930928,a,1,1.606482600007439,[],[],[],[],[],[],[],1.606482600007439,1,,krish,1,001,male,2023-03-11_19h19.48.981,IAT-1.4,2022.2.5,59.95926367668947,
incong_test.xlsx,"A = 
Unhealthy or 
Positive","L = 
Healthy or 
Negative",stimuli/blank.png,Vegetables,l,,,,,0,4,4,4,0,19,19,3,,,,,,,,,,,248.81581729999743,249.31642909999937,249.31642909999937,249.31642909999937,249.31642909999937,249.31642909999937,249.31642909999937,0.5136168000026373,l,1,1.6842531000002054,[],[],[],[],[],[],[],1.6842531000002054,1,,krish,1,001,male,2023-03-11_19h19.48.981,IAT-1.4,2022.2.5,59.95926367668947,
,,,,,,,,,,,,,,,,,,,,,,,,,,,,,,,,,,,,,,,,,,,,,,,,252.0325684999989,,,,,,,,,
