conds_file,label_left,label_right,stimImage,stimWord,CorrAns,instruct_pages.thisRepN,instruct_pages.thisTrialN,instruct_pages.thisN,instruct_pages.thisIndex,blocks.thisRepN,blocks.thisTrialN,blocks.thisN,blocks.thisIndex,trials.thisRepN,trials.thisTrialN,trials.thisN,trials.thisIndex,instr_done_button.started,instr_done_label.started,instr_done_touch.started,instr_done_touch.x,instr_done_touch.y,instr_done_touch.leftButton,instr_done_touch.midButton,instr_done_touch.rightButton,button_L.started,button_R.started,fixation.started,fixation.stopped,image_stim.started,text_stim.started,key_resp.started,button_left.started,button_right.started,touch_resp.started,key_resp.keys,key_resp.corr,key_resp.rt,touch_resp.x,touch_resp.y,touch_resp.leftButton,touch_resp.midButton,touch_resp.rightButton,touch_resp.time,touch_resp.clicked_name,rt,corr,thanks_text.started,participant,order,session,gender,date,expName,psychopyVersion,frameRate,
pos_neg_train.xlsx,"A = 
Positive","L = 
Negative",stimuli/blank.png,Bad,l,,,,,0,0,0,0,0,0,0,1,28.226285399869084,28.226285399869084,0.019596300087869167,-0.12129629629629629,0.011111111111111112,0,0,0,45.437870800029486,45.437870800029486,48.40561700006947,48.89829749986529,48.89829749986529,48.89829749986529,48.89829749986529,48.89829749986529,48.89829749986529,0.5174237000755966,l,1,1.1728763999417424,[],[],[],[],[],[],[],1.1728763999417424,1,,pkav,1,001,female,2023-03-11_19h24.34.425,IAT-1.4,2022.2.5,60.03824438729002,
pos_neg_train.xlsx,"A = 
Positive","L = 
Negative",stimuli/blank.png,Nasty,l,,,,,0,0,0,0,0,1,1,9,,,,,,,,,,,51.09277650015429,51.59284669999033,51.59284669999033,51.59284669999033,51.59284669999033,51.59284669999033,51.59284669999033,0.5125583000481129,l,1,0.9294177000410855,[],[],[],[],[],[],[],0.9294177000410855,1,,pkav,1,001,female,2023-03-11_19h24.34.425,IAT-1.4,2022.2.5,60.03824438729002,
pos_neg_train.xlsx,"A = 
Positive","L = 
Negative",stimuli/blank.png,Love,a,,,,,0,0,0,0,0,2,2,6,,,,,,,,,,,53.54229039978236,54.04214890021831,54.04214890021831,54.04214890021831,54.04214890021831,54.04214890021831,54.04214890021831,0.5141646997071803,a,1,1.480510300025344,[],[],[],[],[],[],[],1.480510300025344,1,,pkav,1,001,female,2023-03-11_19h24.34.425,IAT-1.4,2022.2.5,60.03824438729002,
pos_neg_train.xlsx,"A = 
Positive","L = 
Negative",stimuli/blank.png,Agony,l,,,,,0,0,0,0,0,3,3,5,,,,,,,,,,,56.541082500014454,57.04107980011031,57.04107980011031,57.04107980011031,57.04107980011031,57.04107980011031,57.04107980011031,0.5138224996626377,l,1,0.969830899965018,[],[],[],[],[],[],[],0.969830899965018,1,,pkav,1,001,female,2023-03-11_19h24.34.425,IAT-1.4,2022.2.5,60.03824438729002,
pos_neg_train.xlsx,"A = 
Positive","L = 
Negative",stimuli/blank.png,Pleasure,a,,,,,0,0,0,0,0,4,4,4,,,,,,,,,,,59.040104100015014,59.54011090006679,59.54011090006679,59.54011090006679,59.54011090006679,59.54011090006679,59.54011090006679,0.5137681001797318,l,0,1.4522366998717189,[],[],[],[],[],[],[],1.4522366998717189,0,,pkav,1,001,female,2023-03-11_19h24.34.425,IAT-1.4,2022.2.5,60.03824438729002,
pos_neg_train.xlsx,"A = 
Positive","L = 
Negative",stimuli/blank.png,Evil,l,,,,,0,0,0,0,0,5,5,7,,,,,,,,,,,62.02226749993861,62.52232549991459,62.52232549991459,62.52232549991459,62.52232549991459,62.52232549991459,62.52232549991459,0.5142240999266505,l,1,0.897193799726665,[],[],[],[],[],[],[],0.897193799726665,1,,pkav,1,001,female,2023-03-11_19h24.34.425,IAT-1.4,2022.2.5,60.03824438729002,
pos_neg_train.xlsx,"A = 
Positive","L = 
Negative",stimuli/blank.png,Happy,a,,,,,0,0,0,0,0,6,6,2,,,,,,,,,,,64.43799290014431,64.9380804002285,64.9380804002285,64.9380804002285,64.9380804002285,64.9380804002285,64.9380804002285,0.5133541999384761,a,1,0.7397769000381231,[],[],[],[],[],[],[],0.7397769000381231,1,,pkav,1,001,female,2023-03-11_19h24.34.425,IAT-1.4,2022.2.5,60.03824438729002,
pos_neg_train.xlsx,"A = 
Positive","L = 
Negative",stimuli/blank.png,Good,a,,,,,0,0,0,0,0,7,7,0,,,,,,,,,,,66.70402179984376,67.20403769984841,67.20403769984841,67.20403769984841,67.20403769984841,67.20403769984841,67.20403769984841,0.5133923999965191,a,1,0.5693846000358462,[],[],[],[],[],[],[],0.5693846000358462,1,,pkav,1,001,female,2023-03-11_19h24.34.425,IAT-1.4,2022.2.5,60.03824438729002,
pos_neg_train.xlsx,"A = 
Positive","L = 
Negative",stimuli/blank.png,Joy,a,,,,,0,0,0,0,0,8,8,8,,,,,,,,,,,68.8032149001956,69.30360000021756,69.30360000021756,69.30360000021756,69.30360000021756,69.30360000021756,69.30360000021756,0.5146749000996351,a,1,0.5593234999105334,[],[],[],[],[],[],[],0.5593234999105334,1,,pkav,1,001,female,2023-03-11_19h24.34.425,IAT-1.4,2022.2.5,60.03824438729002,
pos_neg_train.xlsx,"A = 
Positive","L = 
Negative",stimuli/blank.png,Hurt,l,,,,,0,0,0,0,0,9,9,3,,,,,,,,,,,70.88603219995275,71.3860793998465,71.3860793998465,71.3860793998465,71.3860793998465,71.3860793998465,71.3860793998465,0.5138912000693381,l,1,0.8995886999182403,[],[],[],[],[],[],[],0.8995886999182403,1,,pkav,1,001,female,2023-03-11_19h24.34.425,IAT-1.4,2022.2.5,60.03824438729002,
cong_train.xlsx,"A = 
Healthy","L = 
Unhealthy",stimuli/blank.png,Pizza,l,,,,,0,1,1,1,0,0,0,4,,,,,,,,,73.30238439980894,73.30238439980894,85.18828879995272,85.68116499995813,85.68116499995813,85.68116499995813,85.68116499995813,85.68116499995813,85.68116499995813,0.5144829000346363,l,1,1.3519214000552893,[],[],[],[],[],[],[],1.3519214000552893,1,,pkav,1,001,female,2023-03-11_19h24.34.425,IAT-1.4,2022.2.5,60.03824438729002,
cong_train.xlsx,"A = 
Healthy","L = 
Unhealthy",stimuli/blank.png,Vegetables,a,,,,,0,1,1,1,0,1,1,3,,,,,,,,,,,88.06417110003531,88.56414189981297,88.56414189981297,88.56414189981297,88.56414189981297,88.56414189981297,88.56414189981297,0.5130199999548495,a,1,0.630957200191915,[],[],[],[],[],[],[],0.630957200191915,1,,pkav,1,001,female,2023-03-11_19h24.34.425,IAT-1.4,2022.2.5,60.03824438729002,
cong_train.xlsx,"A = 
Healthy","L = 
Unhealthy",stimuli/blank.png,Burger,l,,,,,0,1,1,1,0,2,2,0,,,,,,,,,,,90.21277960017323,90.7126516001299,90.7126516001299,90.7126516001299,90.7126516001299,90.7126516001299,90.7126516001299,0.5126607995480299,l,1,1.0179010001011193,[],[],[],[],[],[],[],1.0179010001011193,1,,pkav,1,001,female,2023-03-11_19h24.34.425,IAT-1.4,2022.2.5,60.03824438729002,
cong_train.xlsx,"A = 
Healthy","L = 
Unhealthy",stimuli/blank.png,Biriyani,l,,,,,0,1,1,1,0,3,3,6,,,,,,,,,,,92.74529090011492,93.24520670017228,93.24520670017228,93.24520670017228,93.24520670017228,93.24520670017228,93.24520670017228,0.5116759999655187,l,1,1.297489299904555,[],[],[],[],[],[],[],1.297489299904555,1,,pkav,1,001,female,2023-03-11_19h24.34.425,IAT-1.4,2022.2.5,60.03824438729002,
cong_train.xlsx,"A = 
Healthy","L = 
Unhealthy",stimuli/blank.png,Yogurt,a,,,,,0,1,1,1,0,4,4,7,,,,,,,,,,,95.56140720006078,96.06095510022715,96.06095510022715,96.06095510022715,96.06095510022715,96.06095510022715,96.06095510022715,0.5130088999867439,a,1,1.2692728000693023,[],[],[],[],[],[],[],1.2692728000693023,1,,pkav,1,001,female,2023-03-11_19h24.34.425,IAT-1.4,2022.2.5,60.03824438729002,
cong_train.xlsx,"A = 
Healthy","L = 
Unhealthy",stimuli/blank.png,Soft Drinks,l,,,,,0,1,1,1,0,5,5,8,,,,,,,,,,,98.36044469987974,98.8604737999849,98.8604737999849,98.8604737999849,98.8604737999849,98.8604737999849,98.8604737999849,0.5146281002089381,l,1,0.7215410000644624,[],[],[],[],[],[],[],0.7215410000644624,1,,pkav,1,001,female,2023-03-11_19h24.34.425,IAT-1.4,2022.2.5,60.03824438729002,
cong_train.xlsx,"A = 
Healthy","L = 
Unhealthy",stimuli/blank.png,Fruit Juice,a,,,,,0,1,1,1,0,6,6,9,,,,,,,,,,,100.60940349986777,101.10931369988248,101.10931369988248,101.10931369988248,101.10931369988248,101.10931369988248,101.10931369988248,0.5133353001438081,a,1,1.163075199816376,[],[],[],[],[],[],[],1.163075199816376,1,,pkav,1,001,female,2023-03-11_19h24.34.425,IAT-1.4,2022.2.5,60.03824438729002,
cong_train.xlsx,"A = 
Healthy","L = 
Unhealthy",stimuli/blank.png,Fruit Salad,a,,,,,0,1,1,1,0,7,7,5,,,,,,,,,,,103.2918695001863,103.79172619991004,103.79172619991004,103.79172619991004,103.79172619991004,103.79172619991004,103.79172619991004,0.5147556997835636,a,1,0.618985100183636,[],[],[],[],[],[],[],0.618985100183636,1,,pkav,1,001,female,2023-03-11_19h24.34.425,IAT-1.4,2022.2.5,60.03824438729002,
cong_train.xlsx,"A = 
Healthy","L = 
Unhealthy",stimuli/blank.png,Salad,a,,,,,0,1,1,1,0,8,8,1,,,,,,,,,,,105.44080939982086,105.94078630022705,105.94078630022705,105.94078630022705,105.94078630022705,105.94078630022705,105.94078630022705,0.513588999863714,a,1,0.5044844001531601,[],[],[],[],[],[],[],0.5044844001531601,1,,pkav,1,001,female,2023-03-11_19h24.34.425,IAT-1.4,2022.2.5,60.03824438729002,
cong_train.xlsx,"A = 
Healthy","L = 
Unhealthy",stimuli/blank.png,Fries,l,,,,,0,1,1,1,0,9,9,2,,,,,,,,,,,107.47354969987646,107.9738377998583,107.9738377998583,107.9738377998583,107.9738377998583,107.9738377998583,107.9738377998583,0.5129467002116144,l,1,0.7538217999972403,[],[],[],[],[],[],[],0.7538217999972403,1,,pkav,1,001,female,2023-03-11_19h24.34.425,IAT-1.4,2022.2.5,60.03824438729002,
cong_test.xlsx,"A = 
Healthy or 
Positive","L = 
Unhealthy or 
Negative",stimuli/blank.png,Happy,a,,,,,0,2,2,2,0,0,0,12,,,,,,,,,109.75633359979838,109.75633359979838,120.17487059999257,120.66924940003082,120.66924940003082,120.66924940003082,120.66924940003082,120.66924940003082,120.66924940003082,0.5153474998660386,a,1,0.6873367996886373,[],[],[],[],[],[],[],0.6873367996886373,1,,pkav,1,001,female,2023-03-11_19h24.34.425,IAT-1.4,2022.2.5,60.03824438729002,
cong_test.xlsx,"A = 
Healthy or 
Positive","L = 
Unhealthy or 
Negative",stimuli/blank.png,Fries,l,,,,,0,2,2,2,0,1,1,2,,,,,,,,,,,122.38507470022887,122.88508220016956,122.88508220016956,122.88508220016956,122.88508220016956,122.88508220016956,122.88508220016956,0.5145489000715315,l,1,2.3131317999213934,[],[],[],[],[],[],[],2.3131317999213934,1,,pkav,1,001,female,2023-03-11_19h24.34.425,IAT-1.4,2022.2.5,60.03824438729002,
cong_test.xlsx,"A = 
Healthy or 
Positive","L = 
Unhealthy or 
Negative",stimuli/blank.png,Yogurt,a,,,,,0,2,2,2,0,2,2,7,,,,,,,,,,,126.21773009980097,126.7171692000702,126.7171692000702,126.7171692000702,126.7171692000702,126.7171692000702,126.7171692000702,0.5137911001220345,a,1,1.4713131999596953,[],[],[],[],[],[],[],1.4713131999596953,1,,pkav,1,001,female,2023-03-11_19h24.34.425,IAT-1.4,2022.2.5,60.03824438729002,
cong_test.xlsx,"A = 
Healthy or 
Positive","L = 
Unhealthy or 
Negative",stimuli/blank.png,Pizza,l,,,,,0,2,2,2,0,3,3,4,,,,,,,,,,,129.21615319978446,129.71612480003387,129.71612480003387,129.71612480003387,129.71612480003387,129.71612480003387,129.71612480003387,0.5140295000746846,l,1,0.7093242998234928,[],[],[],[],[],[],[],0.7093242998234928,1,,pkav,1,001,female,2023-03-11_19h24.34.425,IAT-1.4,2022.2.5,60.03824438729002,
cong_test.xlsx,"A = 
Healthy or 
Positive","L = 
Unhealthy or 
Negative",stimuli/blank.png,Vegetables,a,,,,,0,2,2,2,0,4,4,3,,,,,,,,,,,131.44853040017188,131.948716300074,131.948716300074,131.948716300074,131.948716300074,131.948716300074,131.948716300074,0.5137956999242306,a,1,0.6266550999134779,[],[],[],[],[],[],[],0.6266550999134779,1,,pkav,1,001,female,2023-03-11_19h24.34.425,IAT-1.4,2022.2.5,60.03824438729002,
cong_test.xlsx,"A = 
Healthy or 
Positive","L = 
Unhealthy or 
Negative",stimuli/blank.png,Burger,l,,,,,0,2,2,2,0,5,5,0,,,,,,,,,,,133.59799430007115,134.0979605000466,134.0979605000466,134.0979605000466,134.0979605000466,134.0979605000466,134.0979605000466,0.5145237999968231,l,1,0.7677127998322248,[],[],[],[],[],[],[],0.7677127998322248,1,,pkav,1,001,female,2023-03-11_19h24.34.425,IAT-1.4,2022.2.5,60.03824438729002,
cong_test.xlsx,"A = 
Healthy or 
Positive","L = 
Unhealthy or 
Negative",stimuli/blank.png,Good,a,,,,,0,2,2,2,0,6,6,10,,,,,,,,,,,135.89731250004843,136.39721699990332,136.39721699990332,136.39721699990332,136.39721699990332,136.39721699990332,136.39721699990332,0.5141120003536344,a,1,0.8891543997451663,[],[],[],[],[],[],[],0.8891543997451663,1,,pkav,1,001,female,2023-03-11_19h24.34.425,IAT-1.4,2022.2.5,60.03824438729002,
cong_test.xlsx,"A = 
Healthy or 
Positive","L = 
Unhealthy or 
Negative",stimuli/blank.png,Joy,a,,,,,0,2,2,2,0,7,7,18,,,,,,,,,,,138.31291570002213,138.81303260009736,138.81303260009736,138.81303260009736,138.81303260009736,138.81303260009736,138.81303260009736,0.5127423997037113,a,1,0.9502445999532938,[],[],[],[],[],[],[],0.9502445999532938,1,,pkav,1,001,female,2023-03-11_19h24.34.425,IAT-1.4,2022.2.5,60.03824438729002,
cong_test.xlsx,"A = 
Healthy or 
Positive","L = 
Unhealthy or 
Negative",stimuli/blank.png,Evil,l,,,,,0,2,2,2,0,8,8,17,,,,,,,,,,,140.79548650002107,141.29533409979194,141.29533409979194,141.29533409979194,141.29533409979194,141.29533409979194,141.29533409979194,0.5136420000344515,l,1,0.7021067999303341,[],[],[],[],[],[],[],0.7021067999303341,1,,pkav,1,001,female,2023-03-11_19h24.34.425,IAT-1.4,2022.2.5,60.03824438729002,
cong_test.xlsx,"A = 
Healthy or 
Positive","L = 
Unhealthy or 
Negative",stimuli/blank.png,Salad,a,,,,,0,2,2,2,0,9,9,1,,,,,,,,,,,143.02817049995065,143.52815339993685,143.52815339993685,143.52815339993685,143.52815339993685,143.52815339993685,143.52815339993685,0.5141719998791814,a,1,0.7111717001534998,[],[],[],[],[],[],[],0.7111717001534998,1,,pkav,1,001,female,2023-03-11_19h24.34.425,IAT-1.4,2022.2.5,60.03824438729002,
cong_test.xlsx,"A = 
Healthy or 
Positive","L = 
Unhealthy or 
Negative",stimuli/blank.png,Agony,l,,,,,0,2,2,2,0,10,10,15,,,,,,,,,,,145.26046379981562,145.76112700020894,145.76112700020894,145.76112700020894,145.76112700020894,145.76112700020894,145.76112700020894,0.5130364000797272,l,1,0.7144109001383185,[],[],[],[],[],[],[],0.7144109001383185,1,,pkav,1,001,female,2023-03-11_19h24.34.425,IAT-1.4,2022.2.5,60.03824438729002,
cong_test.xlsx,"A = 
Healthy or 
Positive","L = 
Unhealthy or 
Negative",stimuli/blank.png,Hurt,l,,,,,0,2,2,2,0,11,11,13,,,,,,,,,,,147.51051920000464,147.99358189990744,147.99358189990744,147.99358189990744,147.99358189990744,147.99358189990744,147.99358189990744,0.5136176999658346,l,1,0.8026944999583066,[],[],[],[],[],[],[],0.8026944999583066,1,,pkav,1,001,female,2023-03-11_19h24.34.425,IAT-1.4,2022.2.5,60.03824438729002,
cong_test.xlsx,"A = 
Healthy or 
Positive","L = 
Unhealthy or 
Negative",stimuli/blank.png,Nasty,l,,,,,0,2,2,2,0,12,12,19,,,,,,,,,,,149.82574769994244,150.32558399997652,150.32558399997652,150.32558399997652,150.32558399997652,150.32558399997652,150.32558399997652,0.5127610000781715,l,1,0.5681031001731753,[],[],[],[],[],[],[],0.5681031001731753,1,,pkav,1,001,female,2023-03-11_19h24.34.425,IAT-1.4,2022.2.5,60.03824438729002,
cong_test.xlsx,"A = 
Healthy or 
Positive","L = 
Unhealthy or 
Negative",stimuli/blank.png,Love,a,,,,,0,2,2,2,0,13,13,16,,,,,,,,,,,151.94227669993415,152.42500180006027,152.42500180006027,152.42500180006027,152.42500180006027,152.42500180006027,152.42500180006027,0.5148196998052299,a,1,1.2470110999420285,[],[],[],[],[],[],[],1.2470110999420285,1,,pkav,1,001,female,2023-03-11_19h24.34.425,IAT-1.4,2022.2.5,60.03824438729002,
cong_test.xlsx,"A = 
Healthy or 
Positive","L = 
Unhealthy or 
Negative",stimuli/blank.png,Bad,l,,,,,0,2,2,2,0,14,14,11,,,,,,,,,,,154.6906059999019,155.19053239980713,155.19053239980713,155.19053239980713,155.19053239980713,155.19053239980713,155.19053239980713,0.5123510998673737,l,1,0.7173888999968767,[],[],[],[],[],[],[],0.7173888999968767,1,,pkav,1,001,female,2023-03-11_19h24.34.425,IAT-1.4,2022.2.5,60.03824438729002,
cong_test.xlsx,"A = 
Healthy or 
Positive","L = 
Unhealthy or 
Negative",stimuli/blank.png,Fruit Juice,a,,,,,0,2,2,2,0,15,15,9,,,,,,,,,,,156.9398080999963,157.44001680007204,157.44001680007204,157.44001680007204,157.44001680007204,157.44001680007204,157.44001680007204,0.5151867000386119,a,1,0.8022234998643398,[],[],[],[],[],[],[],0.8022234998643398,1,,pkav,1,001,female,2023-03-11_19h24.34.425,IAT-1.4,2022.2.5,60.03824438729002,
cong_test.xlsx,"A = 
Healthy or 
Positive","L = 
Unhealthy or 
Negative",stimuli/blank.png,Fruit Salad,a,,,,,0,2,2,2,0,16,16,5,,,,,,,,,,,159.2723201001063,159.7722948999144,159.7722948999144,159.7722948999144,159.7722948999144,159.7722948999144,159.7722948999144,0.5136267999187112,a,1,0.5748995002359152,[],[],[],[],[],[],[],0.5748995002359152,1,,pkav,1,001,female,2023-03-11_19h24.34.425,IAT-1.4,2022.2.5,60.03824438729002,
cong_test.xlsx,"A = 
Healthy or 
Positive","L = 
Unhealthy or 
Negative",stimuli/blank.png,Pleasure,a,,,,,0,2,2,2,0,17,17,14,,,,,,,,,,,161.3716791998595,161.87190120015293,161.87190120015293,161.87190120015293,161.87190120015293,161.87190120015293,161.87190120015293,0.5127405999228358,a,1,0.692754799965769,[],[],[],[],[],[],[],0.692754799965769,1,,pkav,1,001,female,2023-03-11_19h24.34.425,IAT-1.4,2022.2.5,60.03824438729002,
cong_test.xlsx,"A = 
Healthy or 
Positive","L = 
Unhealthy or 
Negative",stimuli/blank.png,Soft Drinks,l,,,,,0,2,2,2,0,18,18,8,,,,,,,,,,,163.5887541999109,164.08767809998244,164.08767809998244,164.08767809998244,164.08767809998244,164.08767809998244,164.08767809998244,0.5135608999989927,l,1,0.9346456001512706,[],[],[],[],[],[],[],0.9346456001512706,1,,pkav,1,001,female,2023-03-11_19h24.34.425,IAT-1.4,2022.2.5,60.03824438729002,
cong_test.xlsx,"A = 
Healthy or 
Positive","L = 
Unhealthy or 
Negative",stimuli/blank.png,Biriyani,l,,,,,0,2,2,2,0,19,19,6,,,,,,,,,,,166.07060969993472,166.55341179994866,166.55341179994866,166.55341179994866,166.55341179994866,166.55341179994866,166.55341179994866,0.5142997000366449,a,0,1.3154392000287771,[],[],[],[],[],[],[],1.3154392000287771,0,,pkav,1,001,female,2023-03-11_19h24.34.425,IAT-1.4,2022.2.5,60.03824438729002,
incong_train.xlsx,"A = 
Unhealthy","L = 
Healthy",stimuli/blank.png,Pizza,a,,,,,0,3,3,3,0,0,0,4,,,,,,,,,168.8861674000509,168.8861674000509,174.0214949999936,174.51738409977406,174.51738409977406,174.51738409977406,174.51738409977406,174.51738409977406,174.51738409977406,0.5143456002697349,a,1,1.283222499769181,[],[],[],[],[],[],[],1.283222499769181,1,,pkav,1,001,female,2023-03-11_19h24.34.425,IAT-1.4,2022.2.5,60.03824438729002,
incong_train.xlsx,"A = 
Unhealthy","L = 
Healthy",stimuli/blank.png,Fries,a,,,,,0,3,3,3,0,1,1,2,,,,,,,,,,,176.816454899963,177.31666640006006,177.31666640006006,177.31666640006006,177.31666640006006,177.31666640006006,177.31666640006006,0.5130564998835325,a,1,0.6813428001478314,[],[],[],[],[],[],[],0.6813428001478314,1,,pkav,1,001,female,2023-03-11_19h24.34.425,IAT-1.4,2022.2.5,60.03824438729002,
incong_train.xlsx,"A = 
Unhealthy","L = 
Healthy",stimuli/blank.png,Biriyani,a,,,,,0,3,3,3,0,2,2,6,,,,,,,,,,,179.0324408998713,179.51674439990893,179.51674439990893,179.51674439990893,179.51674439990893,179.51674439990893,179.51674439990893,0.5147086000069976,a,1,0.5432943999767303,[],[],[],[],[],[],[],0.5432943999767303,1,,pkav,1,001,female,2023-03-11_19h24.34.425,IAT-1.4,2022.2.5,60.03824438729002,
incong_train.xlsx,"A = 
Unhealthy","L = 
Healthy",stimuli/blank.png,Salad,l,,,,,0,3,3,3,0,3,3,1,,,,,,,,,,,181.08167230011895,181.58169890008867,181.58169890008867,181.58169890008867,181.58169890008867,181.58169890008867,181.58169890008867,0.5143889999017119,l,1,0.6276616998948157,[],[],[],[],[],[],[],0.6276616998948157,1,,pkav,1,001,female,2023-03-11_19h24.34.425,IAT-1.4,2022.2.5,60.03824438729002,
incong_train.xlsx,"A = 
Unhealthy","L = 
Healthy",stimuli/blank.png,Vegetables,l,,,,,0,3,3,3,0,4,4,3,,,,,,,,,,,183.23111389996484,183.730875399895,183.730875399895,183.730875399895,183.730875399895,183.730875399895,183.730875399895,0.5151312001980841,l,1,0.6355813001282513,[],[],[],[],[],[],[],0.6355813001282513,1,,pkav,1,001,female,2023-03-11_19h24.34.425,IAT-1.4,2022.2.5,60.03824438729002,
incong_train.xlsx,"A = 
Unhealthy","L = 
Healthy",stimuli/blank.png,Soft Drinks,a,,,,,0,3,3,3,0,5,5,8,,,,,,,,,,,185.39668679982424,185.89680430013686,185.89680430013686,185.89680430013686,185.89680430013686,185.89680430013686,185.89680430013686,0.5134346000850201,a,1,0.644395399838686,[],[],[],[],[],[],[],0.644395399838686,1,,pkav,1,001,female,2023-03-11_19h24.34.425,IAT-1.4,2022.2.5,60.03824438729002,
incong_train.xlsx,"A = 
Unhealthy","L = 
Healthy",stimuli/blank.png,Fruit Juice,l,,,,,0,3,3,3,0,6,6,9,,,,,,,,,,,187.56298130005598,188.06273140013218,188.06273140013218,188.06273140013218,188.06273140013218,188.06273140013218,188.06273140013218,0.5127411996945739,l,1,0.7051195004023612,[],[],[],[],[],[],[],0.7051195004023612,1,,pkav,1,001,female,2023-03-11_19h24.34.425,IAT-1.4,2022.2.5,60.03824438729002,
incong_train.xlsx,"A = 
Unhealthy","L = 
Healthy",stimuli/blank.png,Burger,a,,,,,0,3,3,3,0,7,7,0,,,,,,,,,,,189.79544619983062,190.29547839984298,190.29547839984298,190.29547839984298,190.29547839984298,190.29547839984298,190.29547839984298,0.5144087998196483,a,1,0.64337889989838,[],[],[],[],[],[],[],0.64337889989838,1,,pkav,1,001,female,2023-03-11_19h24.34.425,IAT-1.4,2022.2.5,60.03824438729002,
incong_train.xlsx,"A = 
Unhealthy","L = 
Healthy",stimuli/blank.png,Fruit Salad,l,,,,,0,3,3,3,0,8,8,5,,,,,,,,,,,191.96238370006904,192.46195740019903,192.46195740019903,192.46195740019903,192.46195740019903,192.46195740019903,192.46195740019903,0.5135943000204861,a,0,0.5864095999859273,[],[],[],[],[],[],[],0.5864095999859273,0,,pkav,1,001,female,2023-03-11_19h24.34.425,IAT-1.4,2022.2.5,60.03824438729002,
incong_train.xlsx,"A = 
Unhealthy","L = 
Healthy",stimuli/blank.png,Yogurt,l,,,,,0,3,3,3,0,9,9,7,,,,,,,,,,,194.0773042999208,194.57721500005573,194.57721500005573,194.57721500005573,194.57721500005573,194.57721500005573,194.57721500005573,0.5138293001800776,l,1,1.2007237998768687,[],[],[],[],[],[],[],1.2007237998768687,1,,pkav,1,001,female,2023-03-11_19h24.34.425,IAT-1.4,2022.2.5,60.03824438729002,
incong_test.xlsx,"A = 
Unhealthy or 
Positive","L = 
Healthy or 
Negative",stimuli/blank.png,Burger,a,,,,,0,4,4,4,0,0,0,0,,,,,,,,,196.8106730999425,196.8106730999425,201.97946629999205,202.4743945999071,202.4743945999071,202.4743945999071,202.4743945999071,202.4743945999071,202.4743945999071,0.5152497999370098,a,1,1.5691197998821735,[],[],[],[],[],[],[],1.5691197998821735,1,,pkav,1,001,female,2023-03-11_19h24.34.425,IAT-1.4,2022.2.5,60.03824438729002,
incong_test.xlsx,"A = 
Unhealthy or 
Positive","L = 
Healthy or 
Negative",stimuli/blank.png,Fruit Salad,l,,,,,0,4,4,4,0,1,1,5,,,,,,,,,,,205.07446959987283,205.5738609000109,205.5738609000109,205.5738609000109,205.5738609000109,205.5738609000109,205.5738609000109,0.5142997000366449,l,1,1.536961100064218,[],[],[],[],[],[],[],1.536961100064218,1,,pkav,1,001,female,2023-03-11_19h24.34.425,IAT-1.4,2022.2.5,60.03824438729002,
incong_test.xlsx,"A = 
Unhealthy or 
Positive","L = 
Healthy or 
Negative",stimuli/blank.png,Nasty,l,,,,,0,4,4,4,0,2,2,19,,,,,,,,,,,208.13917740015313,208.6392132001929,208.6392132001929,208.6392132001929,208.6392132001929,208.6392132001929,208.6392132001929,0.5137307001277804,a,0,0.8127330001443624,[],[],[],[],[],[],[],0.8127330001443624,0,,pkav,1,001,female,2023-03-11_19h24.34.425,IAT-1.4,2022.2.5,60.03824438729002,
incong_test.xlsx,"A = 
Unhealthy or 
Positive","L = 
Healthy or 
Negative",stimuli/blank.png,Pleasure,a,,,,,0,4,4,4,0,3,3,14,,,,,,,,,,,210.47227110015228,210.9720872999169,210.9720872999169,210.9720872999169,210.9720872999169,210.9720872999169,210.9720872999169,0.5152397002093494,a,1,1.756506200414151,[],[],[],[],[],[],[],1.756506200414151,1,,pkav,1,001,female,2023-03-11_19h24.34.425,IAT-1.4,2022.2.5,60.03824438729002,
incong_test.xlsx,"A = 
Unhealthy or 
Positive","L = 
Healthy or 
Negative",stimuli/blank.png,Agony,l,,,,,0,4,4,4,0,4,4,15,,,,,,,,,,,213.75428210012615,214.25388799980283,214.25388799980283,214.25388799980283,214.25388799980283,214.25388799980283,214.25388799980283,0.5136707001365721,l,1,1.5967144998721778,[],[],[],[],[],[],[],1.5967144998721778,1,,pkav,1,001,female,2023-03-11_19h24.34.425,IAT-1.4,2022.2.5,60.03824438729002,
incong_test.xlsx,"A = 
Unhealthy or 
Positive","L = 
Healthy or 
Negative",stimuli/blank.png,Vegetables,l,,,,,0,4,4,4,0,5,5,3,,,,,,,,,,,216.86944499984384,217.37018699990585,217.37018699990585,217.37018699990585,217.37018699990585,217.37018699990585,217.37018699990585,0.5156584000214934,l,1,1.0277400999329984,[],[],[],[],[],[],[],1.0277400999329984,1,,pkav,1,001,female,2023-03-11_19h24.34.425,IAT-1.4,2022.2.5,60.03824438729002,
incong_test.xlsx,"A = 
Unhealthy or 
Positive","L = 
Healthy or 
Negative",stimuli/blank.png,Soft Drinks,a,,,,,0,4,4,4,0,6,6,8,,,,,,,,,,,219.43592349998653,219.9205070999451,219.9205070999451,219.9205070999451,219.9205070999451,219.9205070999451,219.9205070999451,0.5155501998960972,a,1,1.0950465998612344,[],[],[],[],[],[],[],1.0950465998612344,1,,pkav,1,001,female,2023-03-11_19h24.34.425,IAT-1.4,2022.2.5,60.03824438729002,
incong_test.xlsx,"A = 
Unhealthy or 
Positive","L = 
Healthy or 
Negative",stimuli/blank.png,Pizza,a,,,,,0,4,4,4,0,7,7,4,,,,,,,,,,,222.03478610003367,222.53425939986482,222.53425939986482,222.53425939986482,222.53425939986482,222.53425939986482,222.53425939986482,0.5131300003267825,a,1,0.8971219998784363,[],[],[],[],[],[],[],0.8971219998784363,1,,pkav,1,001,female,2023-03-11_19h24.34.425,IAT-1.4,2022.2.5,60.03824438729002,
incong_test.xlsx,"A = 
Unhealthy or 
Positive","L = 
Healthy or 
Negative",stimuli/blank.png,Salad,l,,,,,0,4,4,4,0,8,8,1,,,,,,,,,,,224.45004259981215,224.94997659977525,224.94997659977525,224.94997659977525,224.94997659977525,224.94997659977525,224.94997659977525,0.5141547000966966,l,1,0.982384099625051,[],[],[],[],[],[],[],0.982384099625051,1,,pkav,1,001,female,2023-03-11_19h24.34.425,IAT-1.4,2022.2.5,60.03824438729002,
incong_test.xlsx,"A = 
Unhealthy or 
Positive","L = 
Healthy or 
Negative",stimuli/blank.png,Joy,a,,,,,0,4,4,4,0,9,9,18,,,,,,,,,,,226.94911839999259,227.44936619978398,227.44936619978398,227.44936619978398,227.44936619978398,227.44936619978398,227.44936619978398,0.5147068998776376,a,1,1.7042292999103665,[],[],[],[],[],[],[],1.7042292999103665,1,,pkav,1,001,female,2023-03-11_19h24.34.425,IAT-1.4,2022.2.5,60.03824438729002,
incong_test.xlsx,"A = 
Unhealthy or 
Positive","L = 
Healthy or 
Negative",stimuli/blank.png,Fries,a,,,,,0,4,4,4,0,10,10,2,,,,,,,,,,,230.1814485997893,230.68149220012128,230.68149220012128,230.68149220012128,230.68149220012128,230.68149220012128,230.68149220012128,0.5150216002948582,a,1,2.48289730027318,[],[],[],[],[],[],[],2.48289730027318,1,,pkav,1,001,female,2023-03-11_19h24.34.425,IAT-1.4,2022.2.5,60.03824438729002,
incong_test.xlsx,"A = 
Unhealthy or 
Positive","L = 
Healthy or 
Negative",stimuli/blank.png,Yogurt,l,,,,,0,4,4,4,0,11,11,7,,,,,,,,,,,234.18023669999093,234.68013639980927,234.68013639980927,234.68013639980927,234.68013639980927,234.68013639980927,234.68013639980927,0.5118664996698499,l,1,0.7250355998985469,[],[],[],[],[],[],[],0.7250355998985469,1,,pkav,1,001,female,2023-03-11_19h24.34.425,IAT-1.4,2022.2.5,60.03824438729002,
incong_test.xlsx,"A = 
Unhealthy or 
Positive","L = 
Healthy or 
Negative",stimuli/blank.png,Bad,l,,,,,0,4,4,4,0,12,12,11,,,,,,,,,,,236.4297318002209,236.9296623999253,236.9296623999253,236.9296623999253,236.9296623999253,236.9296623999253,236.9296623999253,0.5141989998519421,a,0,1.0329280002042651,[],[],[],[],[],[],[],1.0329280002042651,0,,pkav,1,001,female,2023-03-11_19h24.34.425,IAT-1.4,2022.2.5,60.03824438729002,
incong_test.xlsx,"A = 
Unhealthy or 
Positive","L = 
Healthy or 
Negative",stimuli/blank.png,Happy,a,,,,,0,4,4,4,0,13,13,12,,,,,,,,,,,238.9790285001509,239.47894710022956,239.47894710022956,239.47894710022956,239.47894710022956,239.47894710022956,239.47894710022956,0.5136118996888399,a,1,2.324862999841571,[],[],[],[],[],[],[],2.324862999841571,1,,pkav,1,001,female,2023-03-11_19h24.34.425,IAT-1.4,2022.2.5,60.03824438729002,
incong_test.xlsx,"A = 
Unhealthy or 
Positive","L = 
Healthy or 
Negative",stimuli/blank.png,Fruit Juice,l,,,,,0,4,4,4,0,14,14,9,,,,,,,,,,,242.82711130008101,243.3271908001043,243.3271908001043,243.3271908001043,243.3271908001043,243.3271908001043,243.3271908001043,0.5154309999197721,l,1,1.9823953001759946,[],[],[],[],[],[],[],1.9823953001759946,1,,pkav,1,001,female,2023-03-11_19h24.34.425,IAT-1.4,2022.2.5,60.03824438729002,
incong_test.xlsx,"A = 
Unhealthy or 
Positive","L = 
Healthy or 
Negative",stimuli/blank.png,Hurt,l,,,,,0,4,4,4,0,15,15,13,,,,,,,,,,,246.326747499872,246.82636350020766,246.82636350020766,246.82636350020766,246.82636350020766,246.82636350020766,246.82636350020766,0.5154112000018358,l,1,1.261231199838221,[],[],[],[],[],[],[],1.261231199838221,1,,pkav,1,001,female,2023-03-11_19h24.34.425,IAT-1.4,2022.2.5,60.03824438729002,
incong_test.xlsx,"A = 
Unhealthy or 
Positive","L = 
Healthy or 
Negative",stimuli/blank.png,Love,a,,,,,0,4,4,4,0,16,16,16,,,,,,,,,,,249.12491279980168,249.60843680007383,249.60843680007383,249.60843680007383,249.60843680007383,249.60843680007383,249.60843680007383,0.5141615997999907,a,1,1.5522123998962343,[],[],[],[],[],[],[],1.5522123998962343,1,,pkav,1,001,female,2023-03-11_19h24.34.425,IAT-1.4,2022.2.5,60.03824438729002,
incong_test.xlsx,"A = 
Unhealthy or 
Positive","L = 
Healthy or 
Negative",stimuli/blank.png,Evil,l,,,,,0,4,4,4,0,17,17,17,,,,,,,,,,,252.1917779999785,252.69141229987144,252.69141229987144,252.69141229987144,252.69141229987144,252.69141229987144,252.69141229987144,0.5138932000845671,l,1,1.1628596000373363,[],[],[],[],[],[],[],1.1628596000373363,1,,pkav,1,001,female,2023-03-11_19h24.34.425,IAT-1.4,2022.2.5,60.03824438729002,
incong_test.xlsx,"A = 
Unhealthy or 
Positive","L = 
Healthy or 
Negative",stimuli/blank.png,Good,a,,,,,0,4,4,4,0,18,18,10,,,,,,,,,,,254.87306830007583,255.37334900023416,255.37334900023416,255.37334900023416,255.37334900023416,255.37334900023416,255.37334900023416,0.5137141002342105,a,1,4.083005500026047,[],[],[],[],[],[],[],4.083005500026047,1,,pkav,1,001,female,2023-03-11_19h24.34.425,IAT-1.4,2022.2.5,60.03824438729002,
incong_test.xlsx,"A = 
Unhealthy or 
Positive","L = 
Healthy or 
Negative",stimuli/blank.png,Biriyani,a,,,,,0,4,4,4,0,19,19,6,,,,,,,,,,,260.48781650001183,260.9712714999914,260.9712714999914,260.9712714999914,260.9712714999914,260.9712714999914,260.9712714999914,0.4993557999841869,a,1,1.4819554002024233,[],[],[],[],[],[],[],1.4819554002024233,1,,pkav,1,001,female,2023-03-11_19h24.34.425,IAT-1.4,2022.2.5,60.03824438729002,
,,,,,,,,,,,,,,,,,,,,,,,,,,,,,,,,,,,,,,,,,,,,,,,,263.47035779990256,,,,,,,,,
